* (200-320nm) : T. I. Quickenden and J. A. Irvin, "The ultraviolet absorption spectrum of liquid water," J. Chem Phys., 72, 4416--4428, (1980).
*
* 
* (380-727.5nm) R. M. Pope and E. S. Fry, "Absorption spectrum (380*700nm) of pure water. II. Integrating cavity measurements," Appl. Opt., 36, 8710--8723, (1997).
*
*
* (728-790nm) S. A. Sullivan, "Experimental study of the absorption in distilled water, artificial sea water, and heavy water in the visible region of the spectrum," Opt. Soc. Am. J., 53, 962--968, (1963).
*
* one fake value added at 800nm = same as 790nm
* wavelength absorption coeff
* nm           (1/cm)
 196.000000   0.029013
 197.000000   0.019618
 198.000000   0.013056
 199.000000   0.009464
 200.000000   0.007460
 201.000000   0.006079
 202.000000   0.005296
 203.000000   0.004421
 204.000000   0.003868
 205.000000   0.003592
 206.000000   0.003454
 207.000000   0.003224
 208.000000   0.003085
 209.000000   0.002878
 210.000000   0.002901
 211.000000   0.002694
 212.000000   0.002625
 213.000000   0.002533
 214.000000   0.002441
 215.000000   0.002326
 216.000000   0.002275
 217.000000   0.002178
 218.000000   0.002144
 219.000000   0.002114
 220.000000   0.001854
 221.000000   0.001810
 222.000000   0.001697
 223.000000   0.001644
 224.000000   0.001612
 225.000000   0.001497
 226.000000   0.001540
 227.000000   0.001481
 228.000000   0.001416
 229.000000   0.001382
 230.000000   0.001370
 231.000000   0.001331
 232.000000   0.001248
 233.000000   0.001230
 234.000000   0.001232
 235.000000   0.001248
 236.000000   0.001174
 237.000000   0.001135
 238.000000   0.001041
 239.000000   0.001085
 240.000000   0.001112
 241.000000   0.001078
 242.000000   0.001011
 243.000000   0.000965
 244.000000   0.000933
 245.000000   0.000903
 246.000000   0.000919
 247.000000   0.000923
 248.000000   0.000903
 249.000000   0.000898
 250.000000   0.000866
 251.000000   0.000774
 252.000000   0.000808
 253.000000   0.000827
 254.000000   0.000801
 255.000000   0.000751
 256.000000   0.000744
 257.000000   0.000744
 258.000000   0.000705
 259.000000   0.000755
 260.000000   0.000709
 261.000000   0.000762
 262.000000   0.000642
 263.000000   0.000656
 264.000000   0.000629
 265.000000   0.000578
 266.000000   0.000608
 267.000000   0.000543
 268.000000   0.000537
 269.000000   0.000550
 270.000000   0.000543
 271.000000   0.000539
 272.000000   0.000451
 273.000000   0.000493
 274.000000   0.000518
 275.000000   0.000497
 276.000000   0.000456
 277.000000   0.000495
 278.000000   0.000479
 279.000000   0.000481
 280.000000   0.000511
 281.000000   0.000490
 282.000000   0.000414
 283.000000   0.000408
 284.000000   0.000426
 285.000000   0.000410
 286.000000   0.000403
 287.000000   0.000378
 288.000000   0.000387
 289.000000   0.000366
 290.000000   0.000375
 291.000000   0.000368
 292.000000   0.000362
 293.000000   0.000368
 294.000000   0.000348
 295.000000   0.000334
 296.000000   0.000332
 297.000000   0.000283
 298.000000   0.000262
 299.000000   0.000286
 300.000000   0.000286
 301.000000   0.000336
 302.000000   0.000249
 303.000000   0.000318
 304.000000   0.000292
 305.000000   0.000258
 306.000000   0.000281
 307.000000   0.000267
 308.000000   0.000239
 309.000000   0.000288
 310.000000   0.000258
 311.000000   0.000299
 312.000000   0.000274
 313.000000   0.000260
 314.000000   0.000233
 315.000000   0.000242
 316.000000   0.000221
 317.000000   0.000237
 318.000000   0.000214
 319.000000   0.000249
 320.000000   0.000230
380     0.0001137
382.5   0.0001044
385     0.0000941
387.5   0.0000917
390     0.0000851
392.5   0.0000829
395     0.0000813
397.5   0.0000775
400     0.0000663
402.5   0.0000579
405     0.000053
407.5   0.0000503
410     0.0000473
412.5   0.0000452
415     0.0000444
417.5   0.0000442
420     0.0000454
422.5   0.0000474
425     0.0000478
427.5   0.0000482
430     0.0000495
432.5   0.0000504
435     0.000053
437.5   0.000058
440     0.0000635
442.5   0.0000696
445     0.0000751
447.5   0.000083
450     0.0000922
452.5   0.0000969
455     0.0000962
457.5   0.0000957
460     0.0000979
462.5   0.0001005
465     0.0001011
467.5   0.000102
470     0.000106
472.5   0.000109
475     0.000114
477.5   0.000121
480     0.000127
482.5   0.000131
485     0.000136
487.5   0.000144
490     0.00015
492.5   0.000162
495     0.000173
497.5   0.000191
500     0.000204
502.5   0.000228
505     0.000256
507.5   0.00028
510     0.000325
512.5   0.000372
515     0.000396
517.5   0.000399
520     0.000409
522.5   0.000416
525     0.000417
527.5   0.000428
530     0.000434
532.5   0.000447
535     0.000452
537.5   0.000466
540     0.000474
542.5   0.000489
545     0.000511
547.5   0.000537
550     0.000565
552.5   0.000593
555     0.000596
557.5   0.000606
560     0.000619
562.5   0.00064
565     0.000642
567.5   0.000672
570     0.000695
572.5   0.000733
575     0.000772
577.5   0.000836
580     0.000896
582.5   0.000989
585     0.0011
587.5   0.00122
590     0.001351
592.5   0.001516
595     0.001672
597.5   0.001925
600     0.002224
602.5   0.00247
605     0.002577
607.5   0.002629
610     0.002644
612.5   0.002665
615     0.002678
617.5   0.002707
620     0.002755
622.5   0.00281
625     0.002834
627.5   0.002904
630     0.002916
632.5   0.002995
635     0.003012
637.5   0.003077
640     0.003108
642.5   0.00322
645     0.00325
647.5   0.00335
650     0.0034
652.5   0.00358
655     0.00371
657.5   0.00393
660     0.0041
662.5   0.00424
665     0.00429
667.5   0.00436
670     0.00439
672.5   0.00448
675     0.00448
677.5   0.00461
680     0.00465
682.5   0.00478
685     0.00486
687.5   0.00502
690     0.00516
692.5   0.00538
695     0.00559
697.5   0.00592
700     0.00624
702.5   0.00663
705     0.00704
707.5   0.00756
710     0.00827
712.5   0.00914
715     0.01007
717.5   0.01119
720     0.01231
722.5   0.01356
725     0.01489
727.5   0.01678
728	 0.02101
729	 0.02211
730	 0.02309
731	 0.02395
732	 0.02447
733	 0.02492
734	 0.02553
735	 0.02608
736	 0.02643
737	 0.02657
738	 0.02686
739	 0.02697
740	 0.02698
741	 0.02718
742	 0.02704
743	 0.02711
744	 0.02713
745	 0.02712
746	 0.02723
747	 0.027
748	 0.02705
749	 0.02703
750	 0.02683
751	 0.02687
752	 0.02683
753	 0.02679
754	 0.02709
755	 0.02696
756	 0.02688
757	 0.02685
758	 0.02692
759	 0.02688
760	 0.02685
762	 0.02653
764	 0.02633
766	 0.02615
768	 0.02525
770	 0.02519
772	 0.02485
774	 0.02468
776	 0.02403
778	 0.02375
780	 0.02346
782	 0.02177
784	 0.02097
786	 0.02102
788	 0.0207
790	 0.02052
800	 0.02052
