*M. R. Querry, P. G. Cary, R. C. Waring, "Split-pulse laser method for measuring attenuation coefficients of transparent liquids: application to deionized filtered water in the visible region," Appl. Opt.,17, 3587-3592 (1978).
*lambda	 absorption
* (nm) 	   (1/cm)   
10139	 666.802156
9910.8	 624.97112
9661.8	 598.287089
9398.5	 578.947514
9140.8	 565.024732
8888.9	 553.610738
8650.5	 544.462803
8396.3	 539.394703
8150	 538.118176
7905.1	 539.687368
7657	 541.911372
7396	 550.84061
7142	 563.920692
6901	 586.345622
6653	 651.645521
6398	 880.90293
6195	 1782.213508
5955	 1824.497649
5701	 447.681064
5443	 248.880155
5200	 244.319232
4955	 332.736174
4699	 419.859564
4446	 322.214615
4198	 206.036981
3954	 132.115326
3698	 122.197584
3451	 481.025059
3199	 3630.852076
2985	 11454.97245
2937	 11997.31068
2897	 11195.65101
2858	 9057.635479
2818	 6341.156189
2780	 4197.077174
2741	 2118.998984
2704	 762.161494
2666	 345.268793
2630	 191.887992
2594	 119.94731
2565	 111.015183
2553	 105.433469
2500	 95.504412
2449	 69.168913
2398	 47.661024
2349	 34.050636
2301	 25.591486
2249	 20.8918
2197	 19.327157
2147	 21.685329
2099	 27.796882
2051	 41.307882
2000	 69.177867
1949	 119.151625
1901	 76.746742
1849	 12.647926
1798	 9.498163
1749	 7.184889
1698	 5.730354
1648	 5.788308
1599	 7.345707
1549	 10.935744
1499	 18.845363
1489	 30.69435
1399	 13.743064
1349	 3.769911
1300	 1.353301
1250	 1.105841
1199	 1.256637
1150	 1.016893
1099	 0.195299
1049	 0.169987
1000	 0.376991
975	 0.448523
951	 0.38743
925	 0.144004
899	 0.067962
875	 0.056111
849	 0.043353
824	 0.027741
800	 0.019635
775	 0.023965
750	 0.026121
725	 0.015837
700	 0.00601
674	 0.004059
650	 0.003236
625	 0.00296
600	 0.002018
575	 0.00084
550	 0.000558
525	 0.000393
500	 0.000232
475	 0.000185
450	 0.000226
425	 0.000346
400	 0.000496
375	 0.000681
350	 0.000908
325	 0.001192
300	 0.001738
275	 0.002875
250	 0.004678
225	 0.006467
210	 0.023002
200	 0.069178
190	 0.239555
180	 41.852993
174	 853.646514
170	 2955.314545
166	 54815.11155
162	 88049.9172
158	 160817.7224
155	 209250.3288
