*  V. Kopelevich, "Optical properties of pure water in the 250- 600 nm range," Opt. Spectrosc.,41, 391- 392 (1976).
*lambda	 absorption
* (nm) 	   (1/cm)   
390	 0.00019
400	 0.00018
410	 0.00017
420	 0.00016
430	 0.00015
440	 0.00015
450	 0.00014
460	 0.00014
470	 0.00014
480	 0.00015
490	 0.00018
500	 0.00022
510	 0.00029
520	 0.00034
530	 0.00038
540	 0.00045
550	 0.00052
560	 0.00061
570	 0.00077
580	 0.001
590	 0.00143
600	 0.00212
